noise_level_1_loop.thisN,key_resp_2.keys,trials.thisIndex,noise_level_1_loop.thisIndex,key_resp_3.rt,FileName,noise_level_2_loop.thisIndex,noise_level_3_loop.ran,noise_level_1_loop.thisRepN,noise_level_3_loop.thisTrialN,session,Phoneme3Surprisal,noise_level_3_loop.thisN,__datetime,key_resp_2.rt,OS,noise_level_3_loop.thisIndex,__experimentName,LexicalFrequency,key_resp_6.keys,key_resp_7.keys,key_resp_5.rt,noise_level_3_loop.thisRepN,FilePath,expName,key_resp_5.keys,key_resp_3.keys,Phoneme2Surprisal,Condition,key_resp_4.rt,textbox_3.text,trials.thisRepN,psychopyVersion,NoiseLevel,noise_level_2_loop.thisRepN,noise_level_2_loop.ran,trials.thisTrialN,trials.ran,frameRate,key_resp.rt,noise_level_2_loop.thisTrialN,trials.thisN,date,noise_level_1_loop.thisTrialN,textbox_2.text,__participant,key_resp.keys,__session,Words,key_resp_4.keys,noise_level_1_loop.ran,participant,key_resp_7.rt,Phoneme1Surprisal,noise_level_2_loop.thisN,key_resp_6.rt,textbox.text
﻿,,,,,,,,,,001,,,2024-01-17_06h46.12.833,,Win32,,syllable_storage,,,,,,,syllable_storage,,,,,,,,2022.2.5,,,,,,59.95203836927736,5.326000000000008,,,2024-01-17_06h46.18.900,,,100715,return,001,,,,100715,,,,,
﻿,return,,,,,,,,,001,,,2024-01-17_06h46.12.833,2.583999999999989,Win32,,syllable_storage,,,,,,,syllable_storage,,,,,,,,2022.2.5,,,,,,59.95203836927736,,,,2024-01-17_06h46.18.900,,,100715,,001,,,,100715,,,,,
﻿,,0,,,,,,,,001,,,2024-01-17_06h46.12.833,,Win32,,syllable_storage,,,,,,,syllable_storage,,,,,,,0,2022.2.5,,,,0,1,59.95203836927736,,,0,2024-01-17_06h46.18.900,,,100715,,001,,,,100715,,,,,
﻿,,,,2.4480000000000075,,,,,,001,,,2024-01-17_06h46.12.833,,Win32,,syllable_storage,,,,,,,syllable_storage,,return,,,,,,2022.2.5,,,,,,59.95203836927736,,,,2024-01-17_06h46.18.900,,,100715,,001,,,,100715,,,,,
﻿0,,,56,,full_stimuli_Yob-add_Pink_noise__50.wav,,,0,,001,0,,2024-01-17_06h46.12.833,,Win32,,syllable_storage,0,,,5.1440000000000055,,Stimuli/Experimental Stimuli/full_stimuli_Yob-add_Pink_noise__50.wav,syllable_storage,return,,0.07782426778,Nonce,,,,2022.2.5,1,,,,,59.95203836927736,,,,2024-01-17_06h46.18.900,0,,100715,,001,Yob,,1,100715,,0.009679640355,,,yob
﻿1,,,22,,full_stimuli_jab-add_Pink_noise__50.wav,,,0,,001,0.03157894737,,2024-01-17_06h46.12.833,,Win32,,syllable_storage,43915,,,2.2210000000000036,,Stimuli/Experimental Stimuli/full_stimuli_jab-add_Pink_noise__50.wav,syllable_storage,return,,0.0953815261,Real,,,,2022.2.5,1,,,,,59.95203836927736,,,,2024-01-17_06h46.18.900,1,,100715,,001,Jab,,1,100715,,0.01613543396,,,jab
﻿2,,,29,,full_stimuli_Lom-add_Pink_noise__50.wav,,,0,,001,0.05373134328,,2024-01-17_06h46.12.833,,Win32,,syllable_storage,0,,,3.0970000000000084,,Stimuli/Experimental Stimuli/full_stimuli_Lom-add_Pink_noise__50.wav,syllable_storage,return,,0.06427475058,Nonce,,,,2022.2.5,1,,,,,59.95203836927736,,,,2024-01-17_06h46.18.900,2,,100715,,001,Lom,,1,100715,,0.04221781216,,,lob
﻿3,,,1,,full_stimuli_Bep-add_Pink_noise__50.wav,,,0,,001,0,,2024-01-17_06h46.12.833,,Win32,,syllable_storage,0,,,3.5209999999999866,,Stimuli/Experimental Stimuli/full_stimuli_Bep-add_Pink_noise__50.wav,syllable_storage,return,,0.08037773142,Nonce,,,,2022.2.5,1,,,,,59.95203836927736,,,,2024-01-17_06h46.18.900,3,,100715,,001,Bep,,1,100715,,0.07376776963,,,bep
﻿4,,,39,,full_stimuli_Ret-add_Pink_noise__50.wav,,,0,,001,0.05426356589,,2024-01-17_06h46.12.833,,Win32,,syllable_storage,0,,,1.9770000000000039,,Stimuli/Experimental Stimuli/full_stimuli_Ret-add_Pink_noise__50.wav,syllable_storage,return,,0.09647023631,Nonce,,,,2022.2.5,1,,,,,59.95203836927736,,,,2024-01-17_06h46.18.900,4,,100715,,001,Ret,,1,100715,,0.05415738528,,,rep
﻿5,,,49,,full_stimuli_Vop-add_Pink_noise__50.wav,,,0,,001,0,,2024-01-17_06h46.12.833,,Win32,,syllable_storage,0,,,5.671000000000021,,Stimuli/Experimental Stimuli/full_stimuli_Vop-add_Pink_noise__50.wav,syllable_storage,return,,0.06396118218,Nonce,,,,2022.2.5,1,,,,,59.95203836927736,,,,2024-01-17_06h46.18.900,5,,100715,,001,Vop,,1,100715,,0.01836296626,,,vop
﻿6,,,27,,full_stimuli_Lek-add_Pink_noise__50.wav,,,0,,001,0.08,,2024-01-17_06h46.12.833,,Win32,,syllable_storage,0,,,3.4380000000000166,,Stimuli/Experimental Stimuli/full_stimuli_Lek-add_Pink_noise__50.wav,syllable_storage,return,,0.1055257099,Nonce,,,,2022.2.5,1,,,,,59.95203836927736,,,,2024-01-17_06h46.18.900,6,,100715,,001,Lek,,1,100715,,0.04221781216,,,leck
﻿7,,,38,,full_stimuli_Pen-add_Pink_noise__50.wav,,,0,,001,0.2385159011,,2024-01-17_06h46.12.833,,Win32,,syllable_storage,1975721,,,2.015999999999991,,Stimuli/Experimental Stimuli/full_stimuli_Pen-add_Pink_noise__50.wav,syllable_storage,return,,0.07873139519,Real,,,,2022.2.5,1,,,,,59.95203836927736,,,,2024-01-17_06h46.18.900,7,,100715,,001,Pen,,1,100715,,0.05823174436,,,pen
﻿8,,,30,,full_stimuli_Lud-add_Pink_noise__50.wav,,,0,,001,0.08846153846,,2024-01-17_06h46.12.833,,Win32,,syllable_storage,0,,,8.574000000000012,,Stimuli/Experimental Stimuli/full_stimuli_Lud-add_Pink_noise__50.wav,syllable_storage,return,,0.04988488104,Nonce,,,,2022.2.5,1,,,,,59.95203836927736,,,,2024-01-17_06h46.18.900,8,,100715,,001,Lud,,1,100715,,0.04221781216,,,lud
﻿9,,,33,,full_stimuli_mix-add_Pink_noise__50.wav,,,0,,001,0.07520891365,,2024-01-17_06h46.12.833,,Win32,,syllable_storage,3333067,,,3.390000000000015,,Stimuli/Experimental Stimuli/full_stimuli_mix-add_Pink_noise__50.wav,syllable_storage,return,,0.08052035438,Real,,,,2022.2.5,1,,,,,59.95203836927736,,,,2024-01-17_06h46.18.900,9,,100715,,001,Mix,,1,100715,,0.07222874732,,,mix
﻿10,,,7,,full_stimuli_Dap-add_Pink_noise__50.wav,,,0,,001,0.006369426752,,2024-01-17_06h46.12.833,,Win32,,syllable_storage,0,,,1.7060000000000173,,Stimuli/Experimental Stimuli/full_stimuli_Dap-add_Pink_noise__50.wav,syllable_storage,return,,0.04472297394,Nonce,,,,2022.2.5,1,,,,,59.95203836927736,,,,2024-01-17_06h46.18.900,10,,100715,,001,Dap,,1,100715,,0.05687092463,,,dap
﻿11,,,54,,full_stimuli_Yam-add_Pink_noise__50.wav,,,0,,001,0.03333333333,,2024-01-17_06h46.12.833,,Win32,,syllable_storage,178583,,,2.0689999999999884,,Stimuli/Experimental Stimuli/full_stimuli_Yam-add_Pink_noise__50.wav,syllable_storage,return,,0.07531380753,Real,,,,2022.2.5,1,,,,,59.95203836927736,,,,2024-01-17_06h46.18.900,11,,100715,,001,Yam,,1,100715,,0.009679640355,,,yam
﻿12,,,14,,full_stimuli_Fox-add_Pink_noise__50.wav,,,0,,001,0.102189781,,2024-01-17_06h46.12.833,,Win32,,syllable_storage,9954162,,,3.4140000000000157,,Stimuli/Experimental Stimuli/full_stimuli_Fox-add_Pink_noise__50.wav,syllable_storage,return,,0.05318322981,Real,,,,2022.2.5,1,,,,,59.95203836927736,,,,2024-01-17_06h46.18.900,12,,100715,,001,Fox,,1,100715,,0.04173180511,,,fox
﻿13,,,12,,full_stimuli_Fik-add_Pink_noise__50.wav,,,0,,001,0.08149779736,,2024-01-17_06h46.12.833,,Win32,,syllable_storage,0,,,3.186000000000007,,Stimuli/Experimental Stimuli/full_stimuli_Fik-add_Pink_noise__50.wav,syllable_storage,return,,0.08812111801,Nonce,,,,2022.2.5,1,,,,,59.95203836927736,,,,2024-01-17_06h46.18.900,13,,100715,,001,Fik,,1,100715,,0.04173180511,,,fick
﻿14,,,46,,full_stimuli_tub-add_Pink_noise__50.wav,,,0,,001,0.04081632653,,2024-01-17_06h46.12.833,,Win32,,syllable_storage,308450,,,4.198999999999984,,Stimuli/Experimental Stimuli/full_stimuli_tub-add_Pink_noise__50.wav,syllable_storage,return,,0.03218743157,Real,,,,2022.2.5,1,,,,,59.95203836927736,,,,2024-01-17_06h46.18.900,14,,100715,,001,Tub,,1,100715,,0.0369932364,,,tub
﻿15,,,5,,full_stimuli_cod-add_Pink_noise__50.wav,,,0,,001,0.01158580739,,2024-01-17_06h46.12.833,,Win32,,syllable_storage,2194098,,,1.9780000000000086,,Stimuli/Experimental Stimuli/full_stimuli_cod-add_Pink_noise__50.wav,syllable_storage,return,,0.1139627001,Real,,,,2022.2.5,1,,,,,59.95203836927736,,,,2024-01-17_06h46.18.900,15,,100715,,001,Cod,,1,100715,,0.09815722328,,,cod
﻿16,,,4,,full_stimuli_Cat-add_Pink_noise__50.wav,,,0,,001,0.08547794118,,2024-01-17_06h46.12.833,,Win32,,syllable_storage,4596303,,,3.7360000000000184,,Stimuli/Experimental Stimuli/full_stimuli_Cat-add_Pink_noise__50.wav,syllable_storage,return,,0.08978379271,Real,,,,2022.2.5,1,,,,,59.95203836927736,,,,2024-01-17_06h46.18.900,16,,100715,,001,Cat,,1,100715,,0.09815722328,,,cat
﻿17,,,8,,full_stimuli_Den-add_Pink_noise__50.wav,,,0,,001,0.1384408602,,2024-01-17_06h46.12.833,,Win32,,syllable_storage,1313326,,,1.568000000000012,,Stimuli/Experimental Stimuli/full_stimuli_Den-add_Pink_noise__50.wav,syllable_storage,return,,0.1059678109,Real,,,,2022.2.5,1,,,,,59.95203836927736,,,,2024-01-17_06h46.18.900,17,,100715,,001,Den,,1,100715,,0.05687092463,,,den
﻿18,,,6,,full_stimuli_Daf-add_Pink_noise__50.wav,,,0,,001,0.04140127389,,2024-01-17_06h46.12.833,,Win32,,syllable_storage,0,,,2.5260000000000105,,Stimuli/Experimental Stimuli/full_stimuli_Daf-add_Pink_noise__50.wav,syllable_storage,return,,0.04472297394,Nonce,,,,2022.2.5,1,,,,,59.95203836927736,,,,2024-01-17_06h46.18.900,18,,100715,,001,Daf,,1,100715,,0.05687092463,,,dap
﻿19,,,26,,full_stimuli_leak-add_Pink_noise__50.wav,,,0,,001,0.05247813411,,2024-01-17_06h46.12.833,,Win32,,syllable_storage,163674,,,3.2369999999999948,,Stimuli/Experimental Stimuli/full_stimuli_leak-add_Pink_noise__50.wav,syllable_storage,return,,0.06580966999,Real,,,,2022.2.5,1,,,,,59.95203836927736,,,,2024-01-17_06h46.18.900,19,,100715,,001,Leak,,1,100715,,0.04221781216,,,leak
﻿20,,,53,,full_stimuli_Wob-add_Pink_noise__50.wav,,,0,,001,0.02857142857,,2024-01-17_06h46.12.833,,Win32,,syllable_storage,0,,,2.2489999999999952,,Stimuli/Experimental Stimuli/full_stimuli_Wob-add_Pink_noise__50.wav,syllable_storage,return,,0.06790465632,Nonce,,,,2022.2.5,1,,,,,59.95203836927736,,,,2024-01-17_06h46.18.900,20,,100715,,001,Wob,,1,100715,,0.02922522377,,,wob
﻿21,,,51,,full_stimuli_Wed-add_Pink_noise__50.wav,,,0,,001,0.04609218437,,2024-01-17_06h46.12.833,,Win32,,syllable_storage,771774,,,1.6270000000000095,,Stimuli/Experimental Stimuli/full_stimuli_Wed-add_Pink_noise__50.wav,syllable_storage,return,,0.1383037694,Real,,,,2022.2.5,1,,,,,59.95203836927736,,,,2024-01-17_06h46.18.900,21,,100715,,001,Wed,,1,100715,,0.02922522377,,,wed
﻿22,,,20,,full_stimuli_Hop-add_Pink_noise__50.wav,,,0,,001,0.04406364749,,2024-01-17_06h46.12.833,,Win32,,syllable_storage,767925,,,1.4969999999999857,,Stimuli/Experimental Stimuli/full_stimuli_Hop-add_Pink_noise__50.wav,syllable_storage,return,,0.1365079365,Real,,,,2022.2.5,1,,,,,59.95203836927736,,,,2024-01-17_06h46.18.900,22,,100715,,001,Hop,,1,100715,,0.04847920295,,,hop
﻿23,,,25,,full_stimuli_Kit-add_Pink_noise__50.wav,,,0,,001,0.06637168142,,2024-01-17_06h46.12.833,,Win32,,syllable_storage,2634837,,,3.377999999999986,,Stimuli/Experimental Stimuli/full_stimuli_Kit-add_Pink_noise__50.wav,syllable_storage,return,,0.03729988447,Real,,,,2022.2.5,1,,,,,59.95203836927736,,,,2024-01-17_06h46.18.900,23,,100715,,001,Kit,,1,100715,,0.09815722328,,,kip
﻿24,,,10,,full_stimuli_Fep-add_Pink_noise__50.wav,,,0,,001,0,,2024-01-17_06h46.12.833,,Win32,,syllable_storage,0,,,2.8940000000000055,,Stimuli/Experimental Stimuli/full_stimuli_Fep-add_Pink_noise__50.wav,syllable_storage,return,,0.08326863354,Nonce,,,,2022.2.5,1,,,,,59.95203836927736,,,,2024-01-17_06h46.18.900,24,,100715,,001,Fep,,1,100715,,0.04173180511,,,vep
﻿25,,,31,,full_stimuli_Lut-add_Pink_noise__50.wav,,,0,,001,0.05384615385,,2024-01-17_06h46.12.833,,Win32,,syllable_storage,0,,,3.390000000000015,,Stimuli/Experimental Stimuli/full_stimuli_Lut-add_Pink_noise__50.wav,syllable_storage,return,,0.04988488104,Nonce,,,,2022.2.5,1,,,,,59.95203836927736,,,,2024-01-17_06h46.18.900,25,,100715,,001,Lut,,1,100715,,0.04221781216,,,luck
﻿26,,,44,,full_stimuli_tag-add_Pink_noise__50.wav,,,0,,001,0.04,,2024-01-17_06h46.12.833,,Win32,,syllable_storage,863007,,,2.6440000000000055,,Stimuli/Experimental Stimuli/full_stimuli_tag-add_Pink_noise__50.wav,syllable_storage,return,,0.07116268885,Real,,,,2022.2.5,1,,,,,59.95203836927736,,,,2024-01-17_06h46.18.900,26,,100715,,001,Tag,,1,100715,,0.0369932364,,,tag
﻿27,,,0,,full_stimuli_Bed-add_Pink_noise__50.wav,,,0,,001,0.06420765027,,2024-01-17_06h46.12.833,,Win32,,syllable_storage,2039777,,,2.11099999999999,,Stimuli/Experimental Stimuli/full_stimuli_Bed-add_Pink_noise__50.wav,syllable_storage,return,,0.08037773142,Real,,,,2022.2.5,1,,,,,59.95203836927736,,,,2024-01-17_06h46.18.900,27,,100715,,001,Bed,,1,100715,,0.07376776963,,,bed
﻿28,,,19,,full_stimuli_Hin-add_Pink_noise__50.wav,,,0,,001,0.1593830334,,2024-01-17_06h46.12.833,,Win32,,syllable_storage,0,,,2.0800000000000125,,Stimuli/Experimental Stimuli/full_stimuli_Hin-add_Pink_noise__50.wav,syllable_storage,return,,0.06499582289,Nonce,,,,2022.2.5,1,,,,,59.95203836927736,,,,2024-01-17_06h46.18.900,28,,100715,,001,Hin,,1,100715,,0.04847920295,,,pin
﻿29,,,13,,full_stimuli_fix-add_Pink_noise__50.wav,,,0,,001,0.08149779736,,2024-01-17_06h46.12.833,,Win32,,syllable_storage,837625,,,1.568000000000012,,Stimuli/Experimental Stimuli/full_stimuli_fix-add_Pink_noise__50.wav,syllable_storage,return,,0.08812111801,Real,,,,2022.2.5,1,,,,,59.95203836927736,,,,2024-01-17_06h46.18.900,29,,100715,,001,Fix,,1,100715,,0.04173180511,,,fix
﻿30,,,21,,full_stimuli_Hut-add_Pink_noise__50.wav,,,0,,001,0.04461942257,,2024-01-17_06h46.12.833,,Win32,,syllable_storage,922435,,,1.457000000000022,,Stimuli/Experimental Stimuli/full_stimuli_Hut-add_Pink_noise__50.wav,syllable_storage,return,,0.06365914787,Real,,,,2022.2.5,1,,,,,59.95203836927736,,,,2024-01-17_06h46.18.900,30,,100715,,001,Hut,,1,100715,,0.04847920295,,,hut
﻿31,,,58,,full_stimuli_Zat-add_Pink_noise__50.wav,,,0,,001,0,,2024-01-17_06h46.12.833,,Win32,,syllable_storage,0,,,1.6589999999999918,,Stimuli/Experimental Stimuli/full_stimuli_Zat-add_Pink_noise__50.wav,syllable_storage,return,,0.08138238573,Nonce,,,,2022.2.5,1,,,,,59.95203836927736,,,,2024-01-17_06h46.18.900,31,,100715,,001,Zat,,1,100715,,0.007265805354,,,zap
﻿32,,,15,,full_stimuli_Gat-add_Pink_noise__50.wav,,,0,,001,0.05793450882,,2024-01-17_06h46.12.833,,Win32,,syllable_storage,0,,,1.8409999999999798,,Stimuli/Experimental Stimuli/full_stimuli_Gat-add_Pink_noise__50.wav,syllable_storage,return,,0.0854130809,Nonce,,,,2022.2.5,1,,,,,59.95203836927736,,,,2024-01-17_06h46.18.900,32,,100715,,001,Gat,,1,100715,,0.03764934592,,,gap
﻿33,,,43,,full_stimuli_Sop-add_Pink_noise__50.wav,,,0,,001,0.01706484642,,2024-01-17_06h46.12.833,,Win32,,syllable_storage,0,,,2.4359999999999786,,Stimuli/Experimental Stimuli/full_stimuli_Sop-add_Pink_noise__50.wav,syllable_storage,return,,0.02520863805,Nonce,,,,2022.2.5,1,,,,,59.95203836927736,,,,2024-01-17_06h46.18.900,33,,100715,,001,Sop,,1,100715,,0.09414766514,,,sop
﻿34,,,36,,full_stimuli_Nif-add_Pink_noise__50.wav,,,0,,001,0.01433691756,,2024-01-17_06h46.12.833,,Win32,,syllable_storage,0,,,1.7419999999999902,,Stimuli/Experimental Stimuli/full_stimuli_Nif-add_Pink_noise__50.wav,syllable_storage,return,,0.09204882877,Nonce,,,,2022.2.5,1,,,,,59.95203836927736,,,,2024-01-17_06h46.18.900,34,,100715,,001,Nif,,1,100715,,0.024551456,,,nif
﻿35,,,32,,full_stimuli_map-add_Pink_noise__50.wav,,,0,,001,0.01016260163,,2024-01-17_06h46.12.833,,Win32,,syllable_storage,5179480,,,1.6160000000000139,,Stimuli/Experimental Stimuli/full_stimuli_map-add_Pink_noise__50.wav,syllable_storage,return,,0.1103510149,Real,,,,2022.2.5,1,,,,,59.95203836927736,,,,2024-01-17_06h46.18.900,35,,100715,,001,Map,,1,100715,,0.07222874732,,,map
﻿36,,,2,,full_stimuli_Bit-add_Pink_noise__50.wav,,,0,,001,0.07729468599,,2024-01-17_06h46.12.833,,Win32,,syllable_storage,1252381,,,2.8130000000000166,,Stimuli/Experimental Stimuli/full_stimuli_Bit-add_Pink_noise__50.wav,syllable_storage,return,,0.04545953662,Real,,,,2022.2.5,1,,,,,59.95203836927736,,,,2024-01-17_06h46.18.900,36,,100715,,001,Bit,,1,100715,,0.07376776963,,,bit
﻿37,,,23,,full_stimuli_Jug-add_Pink_noise__50.wav,,,0,,001,0.07826086957,,2024-01-17_06h46.12.833,,Win32,,syllable_storage,250685,,,2.88900000000001,,Stimuli/Experimental Stimuli/full_stimuli_Jug-add_Pink_noise__50.wav,syllable_storage,return,,0.05773092369,Real,,,,2022.2.5,1,,,,,59.95203836927736,,,,2024-01-17_06h46.18.900,37,,100715,,001,Jug,,1,100715,,0.01613543396,,,jud
﻿38,,,42,,full_stimuli_Siv-add_Pink_noise__50.wav,,,0,,001,0.02721088435,,2024-01-17_06h46.12.833,,Win32,,syllable_storage,0,,,2.793000000000035,,Stimuli/Experimental Stimuli/full_stimuli_Siv-add_Pink_noise__50.wav,syllable_storage,return,,0.06323668588,Nonce,,,,2022.2.5,1,,,,,59.95203836927736,,,,2024-01-17_06h46.18.900,38,,100715,,001,Siv,,1,100715,,0.09414766514,,,siv
﻿39,,,41,,full_stimuli_Rocks-add_Pink_noise__50.wav,,,0,,001,0.1720698254,,2024-01-17_06h46.12.833,,Win32,,syllable_storage,1548248,,,4.7830000000000155,,Stimuli/Experimental Stimuli/full_stimuli_Rocks-add_Pink_noise__50.wav,syllable_storage,return,,0.0599760694,Real,,,,2022.2.5,1,,,,,59.95203836927736,,,,2024-01-17_06h46.18.900,39,,100715,,001,Rocks,,1,100715,,0.05415738528,,,rocks
﻿40,,,3,,full_stimuli_Cap-add_Pink_noise__50.wav,,,0,,001,0.09283088235,,2024-01-17_06h46.12.833,,Win32,,syllable_storage,2947190,,,2.5149999999999864,,Stimuli/Experimental Stimuli/full_stimuli_Cap-add_Pink_noise__50.wav,syllable_storage,return,,0.08978379271,Real,,,,2022.2.5,1,,,,,59.95203836927736,,,,2024-01-17_06h46.18.900,40,,100715,,001,Cap,,1,100715,,0.09815722328,,,cap
﻿41,,,55,,full_stimuli_Yat-add_Pink_noise__50.wav,,,0,,001,0,,2024-01-17_06h46.12.833,,Win32,,syllable_storage,0,,,1.627999999999986,,Stimuli/Experimental Stimuli/full_stimuli_Yat-add_Pink_noise__50.wav,syllable_storage,return,,0.07531380753,Nonce,,,,2022.2.5,1,,,,,59.95203836927736,,,,2024-01-17_06h46.18.900,41,,100715,,001,Yat,,1,100715,,0.009679640355,,,yap
﻿42,,,50,,full_stimuli_wax-add_Pink_noise__50.wav,,,0,,001,0.397260274,,2024-01-17_06h46.12.833,,Win32,,syllable_storage,710375,,,1.7110000000000127,,Stimuli/Experimental Stimuli/full_stimuli_wax-add_Pink_noise__50.wav,syllable_storage,return,,0.02023281596,Real,,,,2022.2.5,1,,,,,59.95203836927736,,,,2024-01-17_06h46.18.900,42,,100715,,001,Wax,,1,100715,,0.02922522377,,,wax
﻿43,,,48,,full_stimuli_Vep-add_Pink_noise__50.wav,,,0,,001,0,,2024-01-17_06h46.12.833,,Win32,,syllable_storage,0,,,1.5860000000000127,,Stimuli/Experimental Stimuli/full_stimuli_Vep-add_Pink_noise__50.wav,syllable_storage,return,,0.09307454786,Nonce,,,,2022.2.5,1,,,,,59.95203836927736,,,,2024-01-17_06h46.18.900,43,,100715,,001,Vep,,1,100715,,0.01836296626,,,vep
﻿44,,,17,,full_stimuli_Hap-add_Pink_noise__50.wav,,,0,,001,0.02502979738,,2024-01-17_06h46.12.833,,Win32,,syllable_storage,0,,,3.6720000000000255,,Stimuli/Experimental Stimuli/full_stimuli_Hap-add_Pink_noise__50.wav,syllable_storage,return,,0.1401837928,Nonce,,,,2022.2.5,1,,,,,59.95203836927736,,,,2024-01-17_06h46.18.900,44,,100715,,001,Hap,,1,100715,,0.04847920295,,,hap
﻿45,,,11,,full_stimuli_Fib-add_Pink_noise__50.wav,,,0,,001,0.006607929515,,2024-01-17_06h46.12.833,,Win32,,syllable_storage,41568,,,3.313000000000045,,Stimuli/Experimental Stimuli/full_stimuli_Fib-add_Pink_noise__50.wav,syllable_storage,return,,0.08812111801,Real,,,,2022.2.5,1,,,,,59.95203836927736,,,,2024-01-17_06h46.18.900,45,,100715,,001,Fib,,1,100715,,0.04173180511,,,fiv
﻿46,,,9,,full_stimuli_fed-add_Pink_noise__50.wav,,,0,,001,0.08391608392,,2024-01-17_06h46.12.833,,Win32,,syllable_storage,6910570,,,2.4879999999999995,,Stimuli/Experimental Stimuli/full_stimuli_fed-add_Pink_noise__50.wav,syllable_storage,return,,0.08326863354,Real,,,,2022.2.5,1,,,,,59.95203836927736,,,,2024-01-17_06h46.18.900,46,,100715,,001,Fed,,1,100715,,0.04173180511,,,fet
﻿47,,,28,,full_stimuli_Lid-add_Pink_noise__50.wav,,,0,,001,0.02024922118,,2024-01-17_06h46.12.833,,Win32,,syllable_storage,214889,,,2.0030000000000427,,Stimuli/Experimental Stimuli/full_stimuli_Lid-add_Pink_noise__50.wav,syllable_storage,return,,0.1231772832,Real,,,,2022.2.5,1,,,,,59.95203836927736,,,,2024-01-17_06h46.18.900,47,,100715,,001,Lid,,1,100715,,0.04221781216,,,lid
﻿48,,,34,,full_stimuli_Muv-add_Pink_noise__50.wav,,,0,,001,0,,2024-01-17_06h46.12.833,,Win32,,syllable_storage,0,,,5.47199999999998,,Stimuli/Experimental Stimuli/full_stimuli_Muv-add_Pink_noise__50.wav,syllable_storage,return,,0.04272737468,Nonce,,,,2022.2.5,1,,,,,59.95203836927736,,,,2024-01-17_06h46.18.900,48,,100715,,001,Muv,,1,100715,,0.07222874732,,,muv
﻿49,,,37,,full_stimuli_Nop-add_Pink_noise__50.wav,,,0,,001,0.01769911504,,2024-01-17_06h46.12.833,,Win32,,syllable_storage,0,,,4.485000000000014,,Stimuli/Experimental Stimuli/full_stimuli_Nop-add_Pink_noise__50.wav,syllable_storage,return,,0.07456285054,Nonce,,,,2022.2.5,1,,,,,59.95203836927736,,,,2024-01-17_06h46.18.900,49,,100715,,001,Nop,,1,100715,,0.024551456,,,nof
﻿50,,,18,,full_stimuli_hen-add_Pink_noise__50.wav,,,0,,001,0.1649746193,,2024-01-17_06h46.12.833,,Win32,,syllable_storage,1644660,,,2.718999999999994,,Stimuli/Experimental Stimuli/full_stimuli_hen-add_Pink_noise__50.wav,syllable_storage,return,,0.1316624896,Real,,,,2022.2.5,1,,,,,59.95203836927736,,,,2024-01-17_06h46.18.900,50,,100715,,001,Hen,,1,100715,,0.04847920295,,,pen
﻿51,,,52,,full_stimuli_Wib-add_Pink_noise__50.wav,,,0,,001,0.002421307506,,2024-01-17_06h46.12.833,,Win32,,syllable_storage,0,,,8.007999999999981,,Stimuli/Experimental Stimuli/full_stimuli_Wib-add_Pink_noise__50.wav,syllable_storage,return,,0.2289356984,Nonce,,,,2022.2.5,1,,,,,59.95203836927736,,,,2024-01-17_06h46.18.900,51,,100715,,001,Wib,,1,100715,,0.02922522377,,,wiv
﻿52,,,35,,full_stimuli_Nep-add_Pink_noise__50.wav,,,0,,001,0.01908396947,,2024-01-17_06h46.12.833,,Win32,,syllable_storage,0,,,2.048000000000002,,Stimuli/Experimental Stimuli/full_stimuli_Nep-add_Pink_noise__50.wav,syllable_storage,return,,0.08644011877,Nonce,,,,2022.2.5,1,,,,,59.95203836927736,,,,2024-01-17_06h46.18.900,52,,100715,,001,Nep,,1,100715,,0.024551456,,,nep
﻿53,,,40,,full_stimuli_rig-add_Pink_noise__50.wav,,,0,,001,0.06060606061,,2024-01-17_06h46.12.833,,Win32,,syllable_storage,344794,,,1.9239999999999782,,Stimuli/Experimental Stimuli/full_stimuli_rig-add_Pink_noise__50.wav,syllable_storage,return,,0.06909961113,Real,,,,2022.2.5,1,,,,,59.95203836927736,,,,2024-01-17_06h46.18.900,53,,100715,,001,Rig,,1,100715,,0.05415738528,,,rig
﻿54,,,45,,full_stimuli_Teg-add_Pink_noise__50.wav,,,0,,001,0.006134969325,,2024-01-17_06h46.12.833,,Win32,,syllable_storage,0,,,2.4909999999999854,,Stimuli/Experimental Stimuli/full_stimuli_Teg-add_Pink_noise__50.wav,syllable_storage,return,,0.1070724765,Nonce,,,,2022.2.5,1,,,,,59.95203836927736,,,,2024-01-17_06h46.18.900,54,,100715,,001,Teg,,1,100715,,0.0369932364,,,teck
﻿55,,,24,,full_stimuli_Kef-add_Pink_noise__50.wav,,,0,,001,0.006637168142,,2024-01-17_06h46.12.833,,Win32,,syllable_storage,0,,,2.333000000000027,,Stimuli/Experimental Stimuli/full_stimuli_Kef-add_Pink_noise__50.wav,syllable_storage,return,,0.03729988447,Nonce,,,,2022.2.5,1,,,,,59.95203836927736,,,,2024-01-17_06h46.18.900,55,,100715,,001,Kef,,1,100715,,0.09815722328,,,kep
﻿56,,,59,,full_stimuli_Zek-add_Pink_noise__50.wav,,,0,,001,0.0625,,2024-01-17_06h46.12.833,,Win32,,syllable_storage,0,,,3.909999999999968,,Stimuli/Experimental Stimuli/full_stimuli_Zek-add_Pink_noise__50.wav,syllable_storage,return,,0.1070234114,Nonce,,,,2022.2.5,1,,,,,59.95203836927736,,,,2024-01-17_06h46.18.900,56,,100715,,001,Zek,,1,100715,,0.007265805354,,,zeck
﻿57,,,57,,full_stimuli_Zan-add_Pink_noise__50.wav,,,0,,001,0.2739726027,,2024-01-17_06h46.12.833,,Win32,,syllable_storage,0,,,2.430000000000007,,Stimuli/Experimental Stimuli/full_stimuli_Zan-add_Pink_noise__50.wav,syllable_storage,return,,0.08138238573,Nonce,,,,2022.2.5,1,,,,,59.95203836927736,,,,2024-01-17_06h46.18.900,57,,100715,,001,Zan,,1,100715,,0.007265805354,,,zan
﻿58,,,47,,full_stimuli_Van-add_Pink_noise__50.wav,,,0,,001,0.5162454874,,2024-01-17_06h46.12.833,,Win32,,syllable_storage,22811819,,,2.4189999999999827,,Stimuli/Experimental Stimuli/full_stimuli_Van-add_Pink_noise__50.wav,syllable_storage,return,,0.1221879135,Real,,,,2022.2.5,1,,,,,59.95203836927736,,,,2024-01-17_06h46.18.900,58,,100715,,001,Van,,1,100715,,0.01836296626,,,van
﻿59,,,16,,full_stimuli_Gum-add_Pink_noise__50.wav,,,0,,001,0.1008403361,,2024-01-17_06h46.12.833,,Win32,,syllable_storage,606884,,,2.2069999999999936,,Stimuli/Experimental Stimuli/full_stimuli_Gum-add_Pink_noise__50.wav,syllable_storage,return,,0.05120481928,Real,,,,2022.2.5,1,,,,,59.95203836927736,,,,2024-01-17_06h46.18.900,59,,100715,,001,Gum,,1,100715,,0.03764934592,,,gum
﻿,,,,,full_stimuli_Fik-add_Pink_noise__60.wav,12,,,,001,0.08149779736,,2024-01-17_06h46.12.833,,Win32,,syllable_storage,0,return,,,,Stimuli/Experimental Stimuli/full_stimuli_Fik-add_Pink_noise__60.wav,syllable_storage,,,0.08812111801,Nonce,,,,2022.2.5,2,0,1,,,59.95203836927736,,0,,2024-01-17_06h46.18.900,,fick,100715,,001,Fik,,,100715,,0.04173180511,0,4.802999999999997,
﻿,,,,,full_stimuli_Yam-add_Pink_noise__60.wav,54,,,,001,0.03333333333,,2024-01-17_06h46.12.833,,Win32,,syllable_storage,178583,return,,,,Stimuli/Experimental Stimuli/full_stimuli_Yam-add_Pink_noise__60.wav,syllable_storage,,,0.07531380753,Real,,,,2022.2.5,2,0,1,,,59.95203836927736,,1,,2024-01-17_06h46.18.900,,yam,100715,,001,Yam,,,100715,,0.009679640355,1,1.6539999999999964,
﻿,,,,,full_stimuli_Zek-add_Pink_noise__60.wav,59,,,,001,0.0625,,2024-01-17_06h46.12.833,,Win32,,syllable_storage,0,return,,,,Stimuli/Experimental Stimuli/full_stimuli_Zek-add_Pink_noise__60.wav,syllable_storage,,,0.1070234114,Nonce,,,,2022.2.5,2,0,1,,,59.95203836927736,,2,,2024-01-17_06h46.18.900,,zeck,100715,,001,Zek,,,100715,,0.007265805354,2,2.7139999999999986,
﻿,,,,,full_stimuli_jab-add_Pink_noise__60.wav,22,,,,001,0.03157894737,,2024-01-17_06h46.12.833,,Win32,,syllable_storage,43915,return,,,,Stimuli/Experimental Stimuli/full_stimuli_jab-add_Pink_noise__60.wav,syllable_storage,,,0.0953815261,Real,,,,2022.2.5,2,0,1,,,59.95203836927736,,3,,2024-01-17_06h46.18.900,,jab,100715,,001,Jab,,,100715,,0.01613543396,3,2.0179999999999723,
﻿,,,,,full_stimuli_Vop-add_Pink_noise__60.wav,49,,,,001,0,,2024-01-17_06h46.12.833,,Win32,,syllable_storage,0,return,,,,Stimuli/Experimental Stimuli/full_stimuli_Vop-add_Pink_noise__60.wav,syllable_storage,,,0.06396118218,Nonce,,,,2022.2.5,2,0,1,,,59.95203836927736,,4,,2024-01-17_06h46.18.900,,vock,100715,,001,Vop,,,100715,,0.01836296626,4,5.632999999999981,
﻿,,,,,full_stimuli_Lid-add_Pink_noise__60.wav,28,,,,001,0.02024922118,,2024-01-17_06h46.12.833,,Win32,,syllable_storage,214889,return,,,,Stimuli/Experimental Stimuli/full_stimuli_Lid-add_Pink_noise__60.wav,syllable_storage,,,0.1231772832,Real,,,,2022.2.5,2,0,1,,,59.95203836927736,,5,,2024-01-17_06h46.18.900,,lid,100715,,001,Lid,,,100715,,0.04221781216,5,1.632000000000005,
﻿,,,,,full_stimuli_Hut-add_Pink_noise__60.wav,21,,,,001,0.04461942257,,2024-01-17_06h46.12.833,,Win32,,syllable_storage,922435,return,,,,Stimuli/Experimental Stimuli/full_stimuli_Hut-add_Pink_noise__60.wav,syllable_storage,,,0.06365914787,Real,,,,2022.2.5,2,0,1,,,59.95203836927736,,6,,2024-01-17_06h46.18.900,,tut,100715,,001,Hut,,,100715,,0.04847920295,6,2.9569999999999936,
﻿,,,,,full_stimuli_Kit-add_Pink_noise__60.wav,25,,,,001,0.06637168142,,2024-01-17_06h46.12.833,,Win32,,syllable_storage,2634837,return,,,,Stimuli/Experimental Stimuli/full_stimuli_Kit-add_Pink_noise__60.wav,syllable_storage,,,0.03729988447,Real,,,,2022.2.5,2,0,1,,,59.95203836927736,,7,,2024-01-17_06h46.18.900,,kip,100715,,001,Kit,,,100715,,0.09815722328,7,1.4599999999999795,
﻿,,,,,full_stimuli_Vep-add_Pink_noise__60.wav,48,,,,001,0,,2024-01-17_06h46.12.833,,Win32,,syllable_storage,0,return,,,,Stimuli/Experimental Stimuli/full_stimuli_Vep-add_Pink_noise__60.wav,syllable_storage,,,0.09307454786,Nonce,,,,2022.2.5,2,0,1,,,59.95203836927736,,8,,2024-01-17_06h46.18.900,,veck,100715,,001,Vep,,,100715,,0.01836296626,8,2.007000000000005,
﻿,,,,,full_stimuli_leak-add_Pink_noise__60.wav,26,,,,001,0.05247813411,,2024-01-17_06h46.12.833,,Win32,,syllable_storage,163674,return,,,,Stimuli/Experimental Stimuli/full_stimuli_leak-add_Pink_noise__60.wav,syllable_storage,,,0.06580966999,Real,,,,2022.2.5,2,0,1,,,59.95203836927736,,9,,2024-01-17_06h46.18.900,,leak,100715,,001,Leak,,,100715,,0.04221781216,9,1.9309999999999832,
﻿,,,,,full_stimuli_Jug-add_Pink_noise__60.wav,23,,,,001,0.07826086957,,2024-01-17_06h46.12.833,,Win32,,syllable_storage,250685,return,,,,Stimuli/Experimental Stimuli/full_stimuli_Jug-add_Pink_noise__60.wav,syllable_storage,,,0.05773092369,Real,,,,2022.2.5,2,0,1,,,59.95203836927736,,10,,2024-01-17_06h46.18.900,,jud,100715,,001,Jug,,,100715,,0.01613543396,10,1.867999999999995,
﻿,,,,,full_stimuli_mix-add_Pink_noise__60.wav,33,,,,001,0.07520891365,,2024-01-17_06h46.12.833,,Win32,,syllable_storage,3333067,return,,,,Stimuli/Experimental Stimuli/full_stimuli_mix-add_Pink_noise__60.wav,syllable_storage,,,0.08052035438,Real,,,,2022.2.5,2,0,1,,,59.95203836927736,,11,,2024-01-17_06h46.18.900,,mix,100715,,001,Mix,,,100715,,0.07222874732,11,1.407000000000039,
﻿,,,,,full_stimuli_hen-add_Pink_noise__60.wav,18,,,,001,0.1649746193,,2024-01-17_06h46.12.833,,Win32,,syllable_storage,1644660,return,,,,Stimuli/Experimental Stimuli/full_stimuli_hen-add_Pink_noise__60.wav,syllable_storage,,,0.1316624896,Real,,,,2022.2.5,2,0,1,,,59.95203836927736,,12,,2024-01-17_06h46.18.900,,pen,100715,,001,Hen,,,100715,,0.04847920295,12,1.2519999999999527,
﻿,,,,,full_stimuli_rig-add_Pink_noise__60.wav,40,,,,001,0.06060606061,,2024-01-17_06h46.12.833,,Win32,,syllable_storage,344794,return,,,,Stimuli/Experimental Stimuli/full_stimuli_rig-add_Pink_noise__60.wav,syllable_storage,,,0.06909961113,Real,,,,2022.2.5,2,0,1,,,59.95203836927736,,13,,2024-01-17_06h46.18.900,,rig,100715,,001,Rig,,,100715,,0.05415738528,13,2.072999999999979,
﻿,,,,,full_stimuli_Lek-add_Pink_noise__60.wav,27,,,,001,0.08,,2024-01-17_06h46.12.833,,Win32,,syllable_storage,0,return,,,,Stimuli/Experimental Stimuli/full_stimuli_Lek-add_Pink_noise__60.wav,syllable_storage,,,0.1055257099,Nonce,,,,2022.2.5,2,0,1,,,59.95203836927736,,14,,2024-01-17_06h46.18.900,,leck,100715,,001,Lek,,,100715,,0.04221781216,14,4.475999999999999,
﻿,,,,,full_stimuli_Muv-add_Pink_noise__60.wav,34,,,,001,0,,2024-01-17_06h46.12.833,,Win32,,syllable_storage,0,return,,,,Stimuli/Experimental Stimuli/full_stimuli_Muv-add_Pink_noise__60.wav,syllable_storage,,,0.04272737468,Nonce,,,,2022.2.5,2,0,1,,,59.95203836927736,,15,,2024-01-17_06h46.18.900,,mov,100715,,001,Muv,,,100715,,0.07222874732,15,2.6440000000000055,
﻿,,,,,full_stimuli_Gum-add_Pink_noise__60.wav,16,,,,001,0.1008403361,,2024-01-17_06h46.12.833,,Win32,,syllable_storage,606884,return,,,,Stimuli/Experimental Stimuli/full_stimuli_Gum-add_Pink_noise__60.wav,syllable_storage,,,0.05120481928,Real,,,,2022.2.5,2,0,1,,,59.95203836927736,,16,,2024-01-17_06h46.18.900,,dun,100715,,001,Gum,,,100715,,0.03764934592,16,2.223000000000013,
﻿,,,,,full_stimuli_Gat-add_Pink_noise__60.wav,15,,,,001,0.05793450882,,2024-01-17_06h46.12.833,,Win32,,syllable_storage,0,return,,,,Stimuli/Experimental Stimuli/full_stimuli_Gat-add_Pink_noise__60.wav,syllable_storage,,,0.0854130809,Nonce,,,,2022.2.5,2,0,1,,,59.95203836927736,,17,,2024-01-17_06h46.18.900,,gack,100715,,001,Gat,,,100715,,0.03764934592,17,2.5389999999999873,
﻿,,,,,full_stimuli_Nif-add_Pink_noise__60.wav,36,,,,001,0.01433691756,,2024-01-17_06h46.12.833,,Win32,,syllable_storage,0,return,,,,Stimuli/Experimental Stimuli/full_stimuli_Nif-add_Pink_noise__60.wav,syllable_storage,,,0.09204882877,Nonce,,,,2022.2.5,2,0,1,,,59.95203836927736,,18,,2024-01-17_06h46.18.900,,niv,100715,,001,Nif,,,100715,,0.024551456,18,2.0260000000000105,
﻿,,,,,full_stimuli_fed-add_Pink_noise__60.wav,9,,,,001,0.08391608392,,2024-01-17_06h46.12.833,,Win32,,syllable_storage,6910570,return,,,,Stimuli/Experimental Stimuli/full_stimuli_fed-add_Pink_noise__60.wav,syllable_storage,,,0.08326863354,Real,,,,2022.2.5,2,0,1,,,59.95203836927736,,19,,2024-01-17_06h46.18.900,,fed,100715,,001,Fed,,,100715,,0.04173180511,19,1.461999999999989,
﻿,,,,,full_stimuli_Fep-add_Pink_noise__60.wav,10,,,,001,0,,2024-01-17_06h46.12.833,,Win32,,syllable_storage,0,return,,,,Stimuli/Experimental Stimuli/full_stimuli_Fep-add_Pink_noise__60.wav,syllable_storage,,,0.08326863354,Nonce,,,,2022.2.5,2,0,1,,,59.95203836927736,,20,,2024-01-17_06h46.18.900,,bep,100715,,001,Fep,,,100715,,0.04173180511,20,2.170000000000016,
﻿,,,,,full_stimuli_Zan-add_Pink_noise__60.wav,57,,,,001,0.2739726027,,2024-01-17_06h46.12.833,,Win32,,syllable_storage,0,return,,,,Stimuli/Experimental Stimuli/full_stimuli_Zan-add_Pink_noise__60.wav,syllable_storage,,,0.08138238573,Nonce,,,,2022.2.5,2,0,1,,,59.95203836927736,,21,,2024-01-17_06h46.18.900,,zam,100715,,001,Zan,,,100715,,0.007265805354,21,1.7520000000000095,
﻿,,,,,full_stimuli_Hap-add_Pink_noise__60.wav,17,,,,001,0.02502979738,,2024-01-17_06h46.12.833,,Win32,,syllable_storage,0,return,,,,Stimuli/Experimental Stimuli/full_stimuli_Hap-add_Pink_noise__60.wav,syllable_storage,,,0.1401837928,Nonce,,,,2022.2.5,2,0,1,,,59.95203836927736,,22,,2024-01-17_06h46.18.900,,tap,100715,,001,Hap,,,100715,,0.04847920295,22,2.6639999999999873,
﻿,,,,,full_stimuli_Lut-add_Pink_noise__60.wav,31,,,,001,0.05384615385,,2024-01-17_06h46.12.833,,Win32,,syllable_storage,0,return,,,,Stimuli/Experimental Stimuli/full_stimuli_Lut-add_Pink_noise__60.wav,syllable_storage,,,0.04988488104,Nonce,,,,2022.2.5,2,0,1,,,59.95203836927736,,23,,2024-01-17_06h46.18.900,,luck,100715,,001,Lut,,,100715,,0.04221781216,23,5.6510000000000105,
﻿,,,,,full_stimuli_Hin-add_Pink_noise__60.wav,19,,,,001,0.1593830334,,2024-01-17_06h46.12.833,,Win32,,syllable_storage,0,return,,,,Stimuli/Experimental Stimuli/full_stimuli_Hin-add_Pink_noise__60.wav,syllable_storage,,,0.06499582289,Nonce,,,,2022.2.5,2,0,1,,,59.95203836927736,,24,,2024-01-17_06h46.18.900,,pin,100715,,001,Hin,,,100715,,0.04847920295,24,1.9149999999999636,
﻿,,,,,full_stimuli_Bit-add_Pink_noise__60.wav,2,,,,001,0.07729468599,,2024-01-17_06h46.12.833,,Win32,,syllable_storage,1252381,return,,,,Stimuli/Experimental Stimuli/full_stimuli_Bit-add_Pink_noise__60.wav,syllable_storage,,,0.04545953662,Real,,,,2022.2.5,2,0,1,,,59.95203836927736,,25,,2024-01-17_06h46.18.900,,bip,100715,,001,Bit,,,100715,,0.07376776963,25,1.5559999999999832,
﻿,,,,,full_stimuli_Wob-add_Pink_noise__60.wav,53,,,,001,0.02857142857,,2024-01-17_06h46.12.833,,Win32,,syllable_storage,0,return,,,,Stimuli/Experimental Stimuli/full_stimuli_Wob-add_Pink_noise__60.wav,syllable_storage,,,0.06790465632,Nonce,,,,2022.2.5,2,0,1,,,59.95203836927736,,26,,2024-01-17_06h46.18.900,,wob,100715,,001,Wob,,,100715,,0.02922522377,26,1.7309999999999945,
﻿,,,,,full_stimuli_Lom-add_Pink_noise__60.wav,29,,,,001,0.05373134328,,2024-01-17_06h46.12.833,,Win32,,syllable_storage,0,return,,,,Stimuli/Experimental Stimuli/full_stimuli_Lom-add_Pink_noise__60.wav,syllable_storage,,,0.06427475058,Nonce,,,,2022.2.5,2,0,1,,,59.95203836927736,,27,,2024-01-17_06h46.18.900,,lob,100715,,001,Lom,,,100715,,0.04221781216,27,1.4510000000000218,
﻿,,,,,full_stimuli_Van-add_Pink_noise__60.wav,47,,,,001,0.5162454874,,2024-01-17_06h46.12.833,,Win32,,syllable_storage,22811819,return,,,,Stimuli/Experimental Stimuli/full_stimuli_Van-add_Pink_noise__60.wav,syllable_storage,,,0.1221879135,Real,,,,2022.2.5,2,0,1,,,59.95203836927736,,28,,2024-01-17_06h46.18.900,,van,100715,,001,Van,,,100715,,0.01836296626,28,3.0229999999999677,
﻿,,,,,full_stimuli_Ret-add_Pink_noise__60.wav,39,,,,001,0.05426356589,,2024-01-17_06h46.12.833,,Win32,,syllable_storage,0,return,,,,Stimuli/Experimental Stimuli/full_stimuli_Ret-add_Pink_noise__60.wav,syllable_storage,,,0.09647023631,Nonce,,,,2022.2.5,2,0,1,,,59.95203836927736,,29,,2024-01-17_06h46.18.900,,rep,100715,,001,Ret,,,100715,,0.05415738528,29,1.2660000000000196,
﻿,,,,,full_stimuli_Dap-add_Pink_noise__60.wav,7,,,,001,0.006369426752,,2024-01-17_06h46.12.833,,Win32,,syllable_storage,0,return,,,,Stimuli/Experimental Stimuli/full_stimuli_Dap-add_Pink_noise__60.wav,syllable_storage,,,0.04472297394,Nonce,,,,2022.2.5,2,0,1,,,59.95203836927736,,30,,2024-01-17_06h46.18.900,,dap,100715,,001,Dap,,,100715,,0.05687092463,30,1.2300000000000182,
﻿,,,,,full_stimuli_Lud-add_Pink_noise__60.wav,30,,,,001,0.08846153846,,2024-01-17_06h46.12.833,,Win32,,syllable_storage,0,return,,,,Stimuli/Experimental Stimuli/full_stimuli_Lud-add_Pink_noise__60.wav,syllable_storage,,,0.04988488104,Nonce,,,,2022.2.5,2,0,1,,,59.95203836927736,,31,,2024-01-17_06h46.18.900,,lud,100715,,001,Lud,,,100715,,0.04221781216,31,1.8260000000000218,
﻿,,,,,full_stimuli_wax-add_Pink_noise__60.wav,50,,,,001,0.397260274,,2024-01-17_06h46.12.833,,Win32,,syllable_storage,710375,return,,,,Stimuli/Experimental Stimuli/full_stimuli_wax-add_Pink_noise__60.wav,syllable_storage,,,0.02023281596,Real,,,,2022.2.5,2,0,1,,,59.95203836927736,,32,,2024-01-17_06h46.18.900,,wax,100715,,001,Wax,,,100715,,0.02922522377,32,1.56899999999996,
﻿,,,,,full_stimuli_tub-add_Pink_noise__60.wav,46,,,,001,0.04081632653,,2024-01-17_06h46.12.833,,Win32,,syllable_storage,308450,return,,,,Stimuli/Experimental Stimuli/full_stimuli_tub-add_Pink_noise__60.wav,syllable_storage,,,0.03218743157,Real,,,,2022.2.5,2,0,1,,,59.95203836927736,,33,,2024-01-17_06h46.18.900,,tub,100715,,001,Tub,,,100715,,0.0369932364,33,1.3899999999999864,
﻿,,,,,full_stimuli_Kef-add_Pink_noise__60.wav,24,,,,001,0.006637168142,,2024-01-17_06h46.12.833,,Win32,,syllable_storage,0,return,,,,Stimuli/Experimental Stimuli/full_stimuli_Kef-add_Pink_noise__60.wav,syllable_storage,,,0.03729988447,Nonce,,,,2022.2.5,2,0,1,,,59.95203836927736,,34,,2024-01-17_06h46.18.900,,kep,100715,,001,Kef,,,100715,,0.09815722328,34,1.5249999999999773,
﻿,,,,,full_stimuli_Siv-add_Pink_noise__60.wav,42,,,,001,0.02721088435,,2024-01-17_06h46.12.833,,Win32,,syllable_storage,0,return,,,,Stimuli/Experimental Stimuli/full_stimuli_Siv-add_Pink_noise__60.wav,syllable_storage,,,0.06323668588,Nonce,,,,2022.2.5,2,0,1,,,59.95203836927736,,35,,2024-01-17_06h46.18.900,,siv,100715,,001,Siv,,,100715,,0.09414766514,35,2.165999999999997,
﻿,,,,,full_stimuli_Nep-add_Pink_noise__60.wav,35,,,,001,0.01908396947,,2024-01-17_06h46.12.833,,Win32,,syllable_storage,0,return,,,,Stimuli/Experimental Stimuli/full_stimuli_Nep-add_Pink_noise__60.wav,syllable_storage,,,0.08644011877,Nonce,,,,2022.2.5,2,0,1,,,59.95203836927736,,36,,2024-01-17_06h46.18.900,,nep,100715,,001,Nep,,,100715,,0.024551456,36,1.59699999999998,
﻿,,,,,full_stimuli_Yat-add_Pink_noise__60.wav,55,,,,001,0,,2024-01-17_06h46.12.833,,Win32,,syllable_storage,0,return,,,,Stimuli/Experimental Stimuli/full_stimuli_Yat-add_Pink_noise__60.wav,syllable_storage,,,0.07531380753,Nonce,,,,2022.2.5,2,0,1,,,59.95203836927736,,37,,2024-01-17_06h46.18.900,,yap,100715,,001,Yat,,,100715,,0.009679640355,37,2.8430000000000177,
﻿,,,,,full_stimuli_Cap-add_Pink_noise__60.wav,3,,,,001,0.09283088235,,2024-01-17_06h46.12.833,,Win32,,syllable_storage,2947190,return,,,,Stimuli/Experimental Stimuli/full_stimuli_Cap-add_Pink_noise__60.wav,syllable_storage,,,0.08978379271,Real,,,,2022.2.5,2,0,1,,,59.95203836927736,,38,,2024-01-17_06h46.18.900,,cap,100715,,001,Cap,,,100715,,0.09815722328,38,1.4139999999999873,
﻿,,,,,full_stimuli_Bep-add_Pink_noise__60.wav,1,,,,001,0,,2024-01-17_06h46.12.833,,Win32,,syllable_storage,0,return,,,,Stimuli/Experimental Stimuli/full_stimuli_Bep-add_Pink_noise__60.wav,syllable_storage,,,0.08037773142,Nonce,,,,2022.2.5,2,0,1,,,59.95203836927736,,39,,2024-01-17_06h46.18.900,,beck,100715,,001,Bep,,,100715,,0.07376776963,39,3.5540000000000305,
﻿,,,,,full_stimuli_Sop-add_Pink_noise__60.wav,43,,,,001,0.01706484642,,2024-01-17_06h46.12.833,,Win32,,syllable_storage,0,return,,,,Stimuli/Experimental Stimuli/full_stimuli_Sop-add_Pink_noise__60.wav,syllable_storage,,,0.02520863805,Nonce,,,,2022.2.5,2,0,1,,,59.95203836927736,,40,,2024-01-17_06h46.18.900,,sop,100715,,001,Sop,,,100715,,0.09414766514,40,3.576999999999998,
﻿,,,,,full_stimuli_cod-add_Pink_noise__60.wav,5,,,,001,0.01158580739,,2024-01-17_06h46.12.833,,Win32,,syllable_storage,2194098,return,,,,Stimuli/Experimental Stimuli/full_stimuli_cod-add_Pink_noise__60.wav,syllable_storage,,,0.1139627001,Real,,,,2022.2.5,2,0,1,,,59.95203836927736,,41,,2024-01-17_06h46.18.900,,cod,100715,,001,Cod,,,100715,,0.09815722328,41,1.9909999999999854,
﻿,,,,,full_stimuli_Bed-add_Pink_noise__60.wav,0,,,,001,0.06420765027,,2024-01-17_06h46.12.833,,Win32,,syllable_storage,2039777,return,,,,Stimuli/Experimental Stimuli/full_stimuli_Bed-add_Pink_noise__60.wav,syllable_storage,,,0.08037773142,Real,,,,2022.2.5,2,0,1,,,59.95203836927736,,42,,2024-01-17_06h46.18.900,,bed,100715,,001,Bed,,,100715,,0.07376776963,42,1.8840000000000146,
﻿,,,,,full_stimuli_Zat-add_Pink_noise__60.wav,58,,,,001,0,,2024-01-17_06h46.12.833,,Win32,,syllable_storage,0,return,,,,Stimuli/Experimental Stimuli/full_stimuli_Zat-add_Pink_noise__60.wav,syllable_storage,,,0.08138238573,Nonce,,,,2022.2.5,2,0,1,,,59.95203836927736,,43,,2024-01-17_06h46.18.900,,zap,100715,,001,Zat,,,100715,,0.007265805354,43,1.375,
﻿,,,,,full_stimuli_map-add_Pink_noise__60.wav,32,,,,001,0.01016260163,,2024-01-17_06h46.12.833,,Win32,,syllable_storage,5179480,return,,,,Stimuli/Experimental Stimuli/full_stimuli_map-add_Pink_noise__60.wav,syllable_storage,,,0.1103510149,Real,,,,2022.2.5,2,0,1,,,59.95203836927736,,44,,2024-01-17_06h46.18.900,,bap,100715,,001,Map,,,100715,,0.07222874732,44,1.516999999999996,
﻿,,,,,full_stimuli_Pen-add_Pink_noise__60.wav,38,,,,001,0.2385159011,,2024-01-17_06h46.12.833,,Win32,,syllable_storage,1975721,return,,,,Stimuli/Experimental Stimuli/full_stimuli_Pen-add_Pink_noise__60.wav,syllable_storage,,,0.07873139519,Real,,,,2022.2.5,2,0,1,,,59.95203836927736,,45,,2024-01-17_06h46.18.900,,pen,100715,,001,Pen,,,100715,,0.05823174436,45,1.2689999999999486,
﻿,,,,,full_stimuli_Teg-add_Pink_noise__60.wav,45,,,,001,0.006134969325,,2024-01-17_06h46.12.833,,Win32,,syllable_storage,0,return,,,,Stimuli/Experimental Stimuli/full_stimuli_Teg-add_Pink_noise__60.wav,syllable_storage,,,0.1070724765,Nonce,,,,2022.2.5,2,0,1,,,59.95203836927736,,46,,2024-01-17_06h46.18.900,,tag,100715,,001,Teg,,,100715,,0.0369932364,46,3.4150000000000205,
﻿,,,,,full_stimuli_Wed-add_Pink_noise__60.wav,51,,,,001,0.04609218437,,2024-01-17_06h46.12.833,,Win32,,syllable_storage,771774,return,,,,Stimuli/Experimental Stimuli/full_stimuli_Wed-add_Pink_noise__60.wav,syllable_storage,,,0.1383037694,Real,,,,2022.2.5,2,0,1,,,59.95203836927736,,47,,2024-01-17_06h46.18.900,,wed,100715,,001,Wed,,,100715,,0.02922522377,47,1.5219999999999914,
﻿,,,,,full_stimuli_Fox-add_Pink_noise__60.wav,14,,,,001,0.102189781,,2024-01-17_06h46.12.833,,Win32,,syllable_storage,9954162,return,,,,Stimuli/Experimental Stimuli/full_stimuli_Fox-add_Pink_noise__60.wav,syllable_storage,,,0.05318322981,Real,,,,2022.2.5,2,0,1,,,59.95203836927736,,48,,2024-01-17_06h46.18.900,,fox,100715,,001,Fox,,,100715,,0.04173180511,48,1.7019999999999982,
﻿,,,,,full_stimuli_Yob-add_Pink_noise__60.wav,56,,,,001,0,,2024-01-17_06h46.12.833,,Win32,,syllable_storage,0,return,,,,Stimuli/Experimental Stimuli/full_stimuli_Yob-add_Pink_noise__60.wav,syllable_storage,,,0.07782426778,Nonce,,,,2022.2.5,2,0,1,,,59.95203836927736,,49,,2024-01-17_06h46.18.900,,yob,100715,,001,Yob,,,100715,,0.009679640355,49,2.1429999999999723,
﻿,,,,,full_stimuli_fix-add_Pink_noise__60.wav,13,,,,001,0.08149779736,,2024-01-17_06h46.12.833,,Win32,,syllable_storage,837625,return,,,,Stimuli/Experimental Stimuli/full_stimuli_fix-add_Pink_noise__60.wav,syllable_storage,,,0.08812111801,Real,,,,2022.2.5,2,0,1,,,59.95203836927736,,50,,2024-01-17_06h46.18.900,,fix,100715,,001,Fix,,,100715,,0.04173180511,50,1.4979999999999905,
﻿,,,,,full_stimuli_tag-add_Pink_noise__60.wav,44,,,,001,0.04,,2024-01-17_06h46.12.833,,Win32,,syllable_storage,863007,return,,,,Stimuli/Experimental Stimuli/full_stimuli_tag-add_Pink_noise__60.wav,syllable_storage,,,0.07116268885,Real,,,,2022.2.5,2,0,1,,,59.95203836927736,,51,,2024-01-17_06h46.18.900,,tag,100715,,001,Tag,,,100715,,0.0369932364,51,2.326999999999998,
﻿,,,,,full_stimuli_Fib-add_Pink_noise__60.wav,11,,,,001,0.006607929515,,2024-01-17_06h46.12.833,,Win32,,syllable_storage,41568,return,,,,Stimuli/Experimental Stimuli/full_stimuli_Fib-add_Pink_noise__60.wav,syllable_storage,,,0.08812111801,Real,,,,2022.2.5,2,0,1,,,59.95203836927736,,52,,2024-01-17_06h46.18.900,,biv,100715,,001,Fib,,,100715,,0.04173180511,52,1.4470000000000027,
﻿,,,,,full_stimuli_Cat-add_Pink_noise__60.wav,4,,,,001,0.08547794118,,2024-01-17_06h46.12.833,,Win32,,syllable_storage,4596303,return,,,,Stimuli/Experimental Stimuli/full_stimuli_Cat-add_Pink_noise__60.wav,syllable_storage,,,0.08978379271,Real,,,,2022.2.5,2,0,1,,,59.95203836927736,,53,,2024-01-17_06h46.18.900,,cap,100715,,001,Cat,,,100715,,0.09815722328,53,1.3629999999999995,
﻿,,,,,full_stimuli_Den-add_Pink_noise__60.wav,8,,,,001,0.1384408602,,2024-01-17_06h46.12.833,,Win32,,syllable_storage,1313326,return,,,,Stimuli/Experimental Stimuli/full_stimuli_Den-add_Pink_noise__60.wav,syllable_storage,,,0.1059678109,Real,,,,2022.2.5,2,0,1,,,59.95203836927736,,54,,2024-01-17_06h46.18.900,,den,100715,,001,Den,,,100715,,0.05687092463,54,1.4180000000000064,
﻿,,,,,full_stimuli_Daf-add_Pink_noise__60.wav,6,,,,001,0.04140127389,,2024-01-17_06h46.12.833,,Win32,,syllable_storage,0,return,,,,Stimuli/Experimental Stimuli/full_stimuli_Daf-add_Pink_noise__60.wav,syllable_storage,,,0.04472297394,Nonce,,,,2022.2.5,2,0,1,,,59.95203836927736,,55,,2024-01-17_06h46.18.900,,dap,100715,,001,Daf,,,100715,,0.05687092463,55,2.0469999999999686,
﻿,,,,,full_stimuli_Hop-add_Pink_noise__60.wav,20,,,,001,0.04406364749,,2024-01-17_06h46.12.833,,Win32,,syllable_storage,767925,return,,,,Stimuli/Experimental Stimuli/full_stimuli_Hop-add_Pink_noise__60.wav,syllable_storage,,,0.1365079365,Real,,,,2022.2.5,2,0,1,,,59.95203836927736,,56,,2024-01-17_06h46.18.900,,cot,100715,,001,Hop,,,100715,,0.04847920295,56,2.987000000000023,
﻿,,,,,full_stimuli_Rocks-add_Pink_noise__60.wav,41,,,,001,0.1720698254,,2024-01-17_06h46.12.833,,Win32,,syllable_storage,1548248,return,,,,Stimuli/Experimental Stimuli/full_stimuli_Rocks-add_Pink_noise__60.wav,syllable_storage,,,0.0599760694,Real,,,,2022.2.5,2,0,1,,,59.95203836927736,,57,,2024-01-17_06h46.18.900,,rocks,100715,,001,Rocks,,,100715,,0.05415738528,57,1.5599999999999454,
﻿,,,,,full_stimuli_Nop-add_Pink_noise__60.wav,37,,,,001,0.01769911504,,2024-01-17_06h46.12.833,,Win32,,syllable_storage,0,return,,,,Stimuli/Experimental Stimuli/full_stimuli_Nop-add_Pink_noise__60.wav,syllable_storage,,,0.07456285054,Nonce,,,,2022.2.5,2,0,1,,,59.95203836927736,,58,,2024-01-17_06h46.18.900,,nop,100715,,001,Nop,,,100715,,0.024551456,58,2.782000000000039,
﻿,,,,,full_stimuli_Wib-add_Pink_noise__60.wav,52,,,,001,0.002421307506,,2024-01-17_06h46.12.833,,Win32,,syllable_storage,0,return,,,,Stimuli/Experimental Stimuli/full_stimuli_Wib-add_Pink_noise__60.wav,syllable_storage,,,0.2289356984,Nonce,,,,2022.2.5,2,0,1,,,59.95203836927736,,59,,2024-01-17_06h46.18.900,,wiv,100715,,001,Wib,,,100715,,0.02922522377,59,1.6760000000000446,
﻿,,,,,full_stimuli_leak-add_Pink_noise__70.wav,,1,,0,001,0.05247813411,0,2024-01-17_06h46.12.833,,Win32,26,syllable_storage,163674,,return,,0,Stimuli/Experimental Stimuli/full_stimuli_leak-add_Pink_noise__70.wav,syllable_storage,,,0.06580966999,Real,,leak,,2022.2.5,3,,,,,59.95203836927736,,,,2024-01-17_06h46.18.900,,,100715,,001,Leak,,,100715,4.591000000000008,0.04221781216,,,
﻿,,,,,full_stimuli_Bit-add_Pink_noise__70.wav,,1,,1,001,0.07729468599,1,2024-01-17_06h46.12.833,,Win32,2,syllable_storage,1252381,,return,,0,Stimuli/Experimental Stimuli/full_stimuli_Bit-add_Pink_noise__70.wav,syllable_storage,,,0.04545953662,Real,,bip,,2022.2.5,3,,,,,59.95203836927736,,,,2024-01-17_06h46.18.900,,,100715,,001,Bit,,,100715,1.8410000000000082,0.07376776963,,,
﻿,,,,,full_stimuli_wax-add_Pink_noise__70.wav,,1,,2,001,0.397260274,2,2024-01-17_06h46.12.833,,Win32,50,syllable_storage,710375,,return,,0,Stimuli/Experimental Stimuli/full_stimuli_wax-add_Pink_noise__70.wav,syllable_storage,,,0.02023281596,Real,,wax,,2022.2.5,3,,,,,59.95203836927736,,,,2024-01-17_06h46.18.900,,,100715,,001,Wax,,,100715,2.044999999999959,0.02922522377,,,
﻿,,,,,full_stimuli_Bep-add_Pink_noise__70.wav,,1,,3,001,0,3,2024-01-17_06h46.12.833,,Win32,1,syllable_storage,0,,return,,0,Stimuli/Experimental Stimuli/full_stimuli_Bep-add_Pink_noise__70.wav,syllable_storage,,,0.08037773142,Nonce,,zep,,2022.2.5,3,,,,,59.95203836927736,,,,2024-01-17_06h46.18.900,,,100715,,001,Bep,,,100715,2.856999999999971,0.07376776963,,,
﻿,,,,,full_stimuli_Vop-add_Pink_noise__70.wav,,1,,4,001,0,4,2024-01-17_06h46.12.833,,Win32,49,syllable_storage,0,,return,,0,Stimuli/Experimental Stimuli/full_stimuli_Vop-add_Pink_noise__70.wav,syllable_storage,,,0.06396118218,Nonce,,rock,,2022.2.5,3,,,,,59.95203836927736,,,,2024-01-17_06h46.18.900,,,100715,,001,Vop,,,100715,1.5480000000000018,0.01836296626,,,
﻿,,,,,full_stimuli_Nif-add_Pink_noise__70.wav,,1,,5,001,0.01433691756,5,2024-01-17_06h46.12.833,,Win32,36,syllable_storage,0,,return,,0,Stimuli/Experimental Stimuli/full_stimuli_Nif-add_Pink_noise__70.wav,syllable_storage,,,0.09204882877,Nonce,,nip,,2022.2.5,3,,,,,59.95203836927736,,,,2024-01-17_06h46.18.900,,,100715,,001,Nif,,,100715,4.089999999999918,0.024551456,,,
﻿,,,,,full_stimuli_Yam-add_Pink_noise__70.wav,,1,,6,001,0.03333333333,6,2024-01-17_06h46.12.833,,Win32,54,syllable_storage,178583,,return,,0,Stimuli/Experimental Stimuli/full_stimuli_Yam-add_Pink_noise__70.wav,syllable_storage,,,0.07531380753,Real,,yam,,2022.2.5,3,,,,,59.95203836927736,,,,2024-01-17_06h46.18.900,,,100715,,001,Yam,,,100715,1.636000000000081,0.009679640355,,,
﻿,,,,,full_stimuli_Rocks-add_Pink_noise__70.wav,,1,,7,001,0.1720698254,7,2024-01-17_06h46.12.833,,Win32,41,syllable_storage,1548248,,return,,0,Stimuli/Experimental Stimuli/full_stimuli_Rocks-add_Pink_noise__70.wav,syllable_storage,,,0.0599760694,Real,,rocks,,2022.2.5,3,,,,,59.95203836927736,,,,2024-01-17_06h46.18.900,,,100715,,001,Rocks,,,100715,1.7200000000000273,0.05415738528,,,
﻿,,,,,full_stimuli_Zan-add_Pink_noise__70.wav,,1,,8,001,0.2739726027,8,2024-01-17_06h46.12.833,,Win32,57,syllable_storage,0,,return,,0,Stimuli/Experimental Stimuli/full_stimuli_Zan-add_Pink_noise__70.wav,syllable_storage,,,0.08138238573,Nonce,,zim,,2022.2.5,3,,,,,59.95203836927736,,,,2024-01-17_06h46.18.900,,,100715,,001,Zan,,,100715,2.6660000000000537,0.007265805354,,,
﻿,,,,,full_stimuli_Lom-add_Pink_noise__70.wav,,1,,9,001,0.05373134328,9,2024-01-17_06h46.12.833,,Win32,29,syllable_storage,0,,return,,0,Stimuli/Experimental Stimuli/full_stimuli_Lom-add_Pink_noise__70.wav,syllable_storage,,,0.06427475058,Nonce,,von,,2022.2.5,3,,,,,59.95203836927736,,,,2024-01-17_06h46.18.900,,,100715,,001,Lom,,,100715,3.2530000000000427,0.04221781216,,,
﻿,,,,,full_stimuli_Zek-add_Pink_noise__70.wav,,1,,10,001,0.0625,10,2024-01-17_06h46.12.833,,Win32,59,syllable_storage,0,,return,,0,Stimuli/Experimental Stimuli/full_stimuli_Zek-add_Pink_noise__70.wav,syllable_storage,,,0.1070234114,Nonce,,zep,,2022.2.5,3,,,,,59.95203836927736,,,,2024-01-17_06h46.18.900,,,100715,,001,Zek,,,100715,1.3980000000000246,0.007265805354,,,
﻿,,,,,full_stimuli_Cat-add_Pink_noise__70.wav,,1,,11,001,0.08547794118,11,2024-01-17_06h46.12.833,,Win32,4,syllable_storage,4596303,,return,,0,Stimuli/Experimental Stimuli/full_stimuli_Cat-add_Pink_noise__70.wav,syllable_storage,,,0.08978379271,Real,,cat,,2022.2.5,3,,,,,59.95203836927736,,,,2024-01-17_06h46.18.900,,,100715,,001,Cat,,,100715,1.29200000000003,0.09815722328,,,
﻿,,,,,full_stimuli_Daf-add_Pink_noise__70.wav,,1,,12,001,0.04140127389,12,2024-01-17_06h46.12.833,,Win32,6,syllable_storage,0,,return,,0,Stimuli/Experimental Stimuli/full_stimuli_Daf-add_Pink_noise__70.wav,syllable_storage,,,0.04472297394,Nonce,,dab,,2022.2.5,3,,,,,59.95203836927736,,,,2024-01-17_06h46.18.900,,,100715,,001,Daf,,,100715,1.9429999999999836,0.05687092463,,,
﻿,,,,,full_stimuli_Muv-add_Pink_noise__70.wav,,1,,13,001,0,13,2024-01-17_06h46.12.833,,Win32,34,syllable_storage,0,,return,,0,Stimuli/Experimental Stimuli/full_stimuli_Muv-add_Pink_noise__70.wav,syllable_storage,,,0.04272737468,Nonce,,bog,,2022.2.5,3,,,,,59.95203836927736,,,,2024-01-17_06h46.18.900,,,100715,,001,Muv,,,100715,5.942000000000007,0.07222874732,,,
﻿,,,,,full_stimuli_Hut-add_Pink_noise__70.wav,,1,,14,001,0.04461942257,14,2024-01-17_06h46.12.833,,Win32,21,syllable_storage,922435,,return,,0,Stimuli/Experimental Stimuli/full_stimuli_Hut-add_Pink_noise__70.wav,syllable_storage,,,0.06365914787,Real,,cut,,2022.2.5,3,,,,,59.95203836927736,,,,2024-01-17_06h46.18.900,,,100715,,001,Hut,,,100715,1.7069999999999936,0.04847920295,,,
﻿,,,,,full_stimuli_Hop-add_Pink_noise__70.wav,,1,,15,001,0.04406364749,15,2024-01-17_06h46.12.833,,Win32,20,syllable_storage,767925,,return,,0,Stimuli/Experimental Stimuli/full_stimuli_Hop-add_Pink_noise__70.wav,syllable_storage,,,0.1365079365,Real,,cot,,2022.2.5,3,,,,,59.95203836927736,,,,2024-01-17_06h46.18.900,,,100715,,001,Hop,,,100715,1.995999999999981,0.04847920295,,,
﻿,,,,,full_stimuli_Zat-add_Pink_noise__70.wav,,1,,16,001,0,16,2024-01-17_06h46.12.833,,Win32,58,syllable_storage,0,,return,,0,Stimuli/Experimental Stimuli/full_stimuli_Zat-add_Pink_noise__70.wav,syllable_storage,,,0.08138238573,Nonce,,zag,,2022.2.5,3,,,,,59.95203836927736,,,,2024-01-17_06h46.18.900,,,100715,,001,Zat,,,100715,1.594000000000051,0.007265805354,,,
﻿,,,,,full_stimuli_Sop-add_Pink_noise__70.wav,,1,,17,001,0.01706484642,17,2024-01-17_06h46.12.833,,Win32,43,syllable_storage,0,,return,,0,Stimuli/Experimental Stimuli/full_stimuli_Sop-add_Pink_noise__70.wav,syllable_storage,,,0.02520863805,Nonce,,touch,,2022.2.5,3,,,,,59.95203836927736,,,,2024-01-17_06h46.18.900,,,100715,,001,Sop,,,100715,5.935000000000059,0.09414766514,,,
﻿,,,,,full_stimuli_Nop-add_Pink_noise__70.wav,,1,,18,001,0.01769911504,18,2024-01-17_06h46.12.833,,Win32,37,syllable_storage,0,,return,,0,Stimuli/Experimental Stimuli/full_stimuli_Nop-add_Pink_noise__70.wav,syllable_storage,,,0.07456285054,Nonce,,nob,,2022.2.5,3,,,,,59.95203836927736,,,,2024-01-17_06h46.18.900,,,100715,,001,Nop,,,100715,1.5470000000000255,0.024551456,,,
﻿,,,,,full_stimuli_rig-add_Pink_noise__70.wav,,1,,19,001,0.06060606061,19,2024-01-17_06h46.12.833,,Win32,40,syllable_storage,344794,,return,,0,Stimuli/Experimental Stimuli/full_stimuli_rig-add_Pink_noise__70.wav,syllable_storage,,,0.06909961113,Real,,zig,,2022.2.5,3,,,,,59.95203836927736,,,,2024-01-17_06h46.18.900,,,100715,,001,Rig,,,100715,2.2269999999999754,0.05415738528,,,
﻿,,,,,full_stimuli_Teg-add_Pink_noise__70.wav,,1,,20,001,0.006134969325,20,2024-01-17_06h46.12.833,,Win32,45,syllable_storage,0,,return,,0,Stimuli/Experimental Stimuli/full_stimuli_Teg-add_Pink_noise__70.wav,syllable_storage,,,0.1070724765,Nonce,,zag,,2022.2.5,3,,,,,59.95203836927736,,,,2024-01-17_06h46.18.900,,,100715,,001,Teg,,,100715,1.620999999999981,0.0369932364,,,
﻿,,,,,full_stimuli_Wib-add_Pink_noise__70.wav,,1,,21,001,0.002421307506,21,2024-01-17_06h46.12.833,,Win32,52,syllable_storage,0,,return,,0,Stimuli/Experimental Stimuli/full_stimuli_Wib-add_Pink_noise__70.wav,syllable_storage,,,0.2289356984,Nonce,,yib,,2022.2.5,3,,,,,59.95203836927736,,,,2024-01-17_06h46.18.900,,,100715,,001,Wib,,,100715,2.163000000000011,0.02922522377,,,
﻿,,,,,full_stimuli_Siv-add_Pink_noise__70.wav,,1,,22,001,0.02721088435,22,2024-01-17_06h46.12.833,,Win32,42,syllable_storage,0,,return,,0,Stimuli/Experimental Stimuli/full_stimuli_Siv-add_Pink_noise__70.wav,syllable_storage,,,0.06323668588,Nonce,,zin,,2022.2.5,3,,,,,59.95203836927736,,,,2024-01-17_06h46.18.900,,,100715,,001,Siv,,,100715,6.482000000000085,0.09414766514,,,
﻿,,,,,full_stimuli_Lek-add_Pink_noise__70.wav,,1,,23,001,0.08,23,2024-01-17_06h46.12.833,,Win32,27,syllable_storage,0,,return,,0,Stimuli/Experimental Stimuli/full_stimuli_Lek-add_Pink_noise__70.wav,syllable_storage,,,0.1055257099,Nonce,,weg,,2022.2.5,3,,,,,59.95203836927736,,,,2024-01-17_06h46.18.900,,,100715,,001,Lek,,,100715,1.6079999999999472,0.04221781216,,,
﻿,,,,,full_stimuli_Kef-add_Pink_noise__70.wav,,1,,24,001,0.006637168142,24,2024-01-17_06h46.12.833,,Win32,24,syllable_storage,0,,return,,0,Stimuli/Experimental Stimuli/full_stimuli_Kef-add_Pink_noise__70.wav,syllable_storage,,,0.03729988447,Nonce,,tag,,2022.2.5,3,,,,,59.95203836927736,,,,2024-01-17_06h46.18.900,,,100715,,001,Kef,,,100715,1.5720000000000027,0.09815722328,,,
﻿,,,,,full_stimuli_map-add_Pink_noise__70.wav,,1,,25,001,0.01016260163,25,2024-01-17_06h46.12.833,,Win32,32,syllable_storage,5179480,,return,,0,Stimuli/Experimental Stimuli/full_stimuli_map-add_Pink_noise__70.wav,syllable_storage,,,0.1103510149,Real,,mouse,,2022.2.5,3,,,,,59.95203836927736,,,,2024-01-17_06h46.18.900,,,100715,,001,Map,,,100715,4.724000000000046,0.07222874732,,,
﻿,,,,,full_stimuli_jab-add_Pink_noise__70.wav,,1,,26,001,0.03157894737,26,2024-01-17_06h46.12.833,,Win32,22,syllable_storage,43915,,return,,0,Stimuli/Experimental Stimuli/full_stimuli_jab-add_Pink_noise__70.wav,syllable_storage,,,0.0953815261,Real,,jag,,2022.2.5,3,,,,,59.95203836927736,,,,2024-01-17_06h46.18.900,,,100715,,001,Jab,,,100715,5.51400000000001,0.01613543396,,,
﻿,,,,,full_stimuli_tag-add_Pink_noise__70.wav,,1,,27,001,0.04,27,2024-01-17_06h46.12.833,,Win32,44,syllable_storage,863007,,return,,0,Stimuli/Experimental Stimuli/full_stimuli_tag-add_Pink_noise__70.wav,syllable_storage,,,0.07116268885,Real,,cat,,2022.2.5,3,,,,,59.95203836927736,,,,2024-01-17_06h46.18.900,,,100715,,001,Tag,,,100715,10.225000000000023,0.0369932364,,,
﻿,,,,,full_stimuli_Yat-add_Pink_noise__70.wav,,1,,28,001,0,28,2024-01-17_06h46.12.833,,Win32,55,syllable_storage,0,,return,,0,Stimuli/Experimental Stimuli/full_stimuli_Yat-add_Pink_noise__70.wav,syllable_storage,,,0.07531380753,Nonce,,yak,,2022.2.5,3,,,,,59.95203836927736,,,,2024-01-17_06h46.18.900,,,100715,,001,Yat,,,100715,6.63900000000001,0.009679640355,,,
﻿,,,,,full_stimuli_Lid-add_Pink_noise__70.wav,,1,,29,001,0.02024922118,29,2024-01-17_06h46.12.833,,Win32,28,syllable_storage,214889,,return,,0,Stimuli/Experimental Stimuli/full_stimuli_Lid-add_Pink_noise__70.wav,syllable_storage,,,0.1231772832,Real,,ril,,2022.2.5,3,,,,,59.95203836927736,,,,2024-01-17_06h46.18.900,,,100715,,001,Lid,,,100715,7.22099999999989,0.04221781216,,,
﻿,,,,,full_stimuli_Gat-add_Pink_noise__70.wav,,1,,30,001,0.05793450882,30,2024-01-17_06h46.12.833,,Win32,15,syllable_storage,0,,return,,0,Stimuli/Experimental Stimuli/full_stimuli_Gat-add_Pink_noise__70.wav,syllable_storage,,,0.0854130809,Nonce,,gas,,2022.2.5,3,,,,,59.95203836927736,,,,2024-01-17_06h46.18.900,,,100715,,001,Gat,,,100715,1.8539999999999281,0.03764934592,,,
﻿,,,,,full_stimuli_tub-add_Pink_noise__70.wav,,1,,31,001,0.04081632653,31,2024-01-17_06h46.12.833,,Win32,46,syllable_storage,308450,,return,,0,Stimuli/Experimental Stimuli/full_stimuli_tub-add_Pink_noise__70.wav,syllable_storage,,,0.03218743157,Real,,mas,,2022.2.5,3,,,,,59.95203836927736,,,,2024-01-17_06h46.18.900,,,100715,,001,Tub,,,100715,18.312999999999988,0.0369932364,,,
﻿,,,,,full_stimuli_Vep-add_Pink_noise__70.wav,,1,,32,001,0,32,2024-01-17_06h46.12.833,,Win32,48,syllable_storage,0,,return,,0,Stimuli/Experimental Stimuli/full_stimuli_Vep-add_Pink_noise__70.wav,syllable_storage,,,0.09307454786,Nonce,,bed,,2022.2.5,3,,,,,59.95203836927736,,,,2024-01-17_06h46.18.900,,,100715,,001,Vep,,,100715,1.5810000000000173,0.01836296626,,,
﻿,,,,,full_stimuli_cod-add_Pink_noise__70.wav,,1,,33,001,0.01158580739,33,2024-01-17_06h46.12.833,,Win32,5,syllable_storage,2194098,,return,,0,Stimuli/Experimental Stimuli/full_stimuli_cod-add_Pink_noise__70.wav,syllable_storage,,,0.1139627001,Real,,car,,2022.2.5,3,,,,,59.95203836927736,,,,2024-01-17_06h46.18.900,,,100715,,001,Cod,,,100715,1.427000000000021,0.09815722328,,,
﻿,,,,,full_stimuli_Gum-add_Pink_noise__70.wav,,1,,34,001,0.1008403361,34,2024-01-17_06h46.12.833,,Win32,16,syllable_storage,606884,,return,,0,Stimuli/Experimental Stimuli/full_stimuli_Gum-add_Pink_noise__70.wav,syllable_storage,,,0.05120481928,Real,,num,,2022.2.5,3,,,,,59.95203836927736,,,,2024-01-17_06h46.18.900,,,100715,,001,Gum,,,100715,2.1760000000000446,0.03764934592,,,
﻿,,,,,full_stimuli_Cap-add_Pink_noise__70.wav,,1,,35,001,0.09283088235,35,2024-01-17_06h46.12.833,,Win32,3,syllable_storage,2947190,,return,,0,Stimuli/Experimental Stimuli/full_stimuli_Cap-add_Pink_noise__70.wav,syllable_storage,,,0.08978379271,Real,,cap,,2022.2.5,3,,,,,59.95203836927736,,,,2024-01-17_06h46.18.900,,,100715,,001,Cap,,,100715,2.6779999999999973,0.09815722328,,,
﻿,,,,,full_stimuli_Den-add_Pink_noise__70.wav,,1,,36,001,0.1384408602,36,2024-01-17_06h46.12.833,,Win32,8,syllable_storage,1313326,,return,,0,Stimuli/Experimental Stimuli/full_stimuli_Den-add_Pink_noise__70.wav,syllable_storage,,,0.1059678109,Real,,dan,,2022.2.5,3,,,,,59.95203836927736,,,,2024-01-17_06h46.18.900,,,100715,,001,Den,,,100715,1.2569999999999482,0.05687092463,,,
﻿,,,,,full_stimuli_Yob-add_Pink_noise__70.wav,,1,,37,001,0,37,2024-01-17_06h46.12.833,,Win32,56,syllable_storage,0,,return,,0,Stimuli/Experimental Stimuli/full_stimuli_Yob-add_Pink_noise__70.wav,syllable_storage,,,0.07782426778,Nonce,,gel,,2022.2.5,3,,,,,59.95203836927736,,,,2024-01-17_06h46.18.900,,,100715,,001,Yob,,,100715,1.3149999999999409,0.009679640355,,,
﻿,,,,,full_stimuli_Fib-add_Pink_noise__70.wav,,1,,38,001,0.006607929515,38,2024-01-17_06h46.12.833,,Win32,11,syllable_storage,41568,,return,,0,Stimuli/Experimental Stimuli/full_stimuli_Fib-add_Pink_noise__70.wav,syllable_storage,,,0.08812111801,Real,,bib,,2022.2.5,3,,,,,59.95203836927736,,,,2024-01-17_06h46.18.900,,,100715,,001,Fib,,,100715,1.4050000000000864,0.04173180511,,,
﻿,,,,,full_stimuli_Bed-add_Pink_noise__70.wav,,1,,39,001,0.06420765027,39,2024-01-17_06h46.12.833,,Win32,0,syllable_storage,2039777,,return,,0,Stimuli/Experimental Stimuli/full_stimuli_Bed-add_Pink_noise__70.wav,syllable_storage,,,0.08037773142,Real,,bed,,2022.2.5,3,,,,,59.95203836927736,,,,2024-01-17_06h46.18.900,,,100715,,001,Bed,,,100715,1.6510000000000673,0.07376776963,,,
﻿,,,,,full_stimuli_fix-add_Pink_noise__70.wav,,1,,40,001,0.08149779736,40,2024-01-17_06h46.12.833,,Win32,13,syllable_storage,837625,,return,,0,Stimuli/Experimental Stimuli/full_stimuli_fix-add_Pink_noise__70.wav,syllable_storage,,,0.08812111801,Real,,fix,,2022.2.5,3,,,,,59.95203836927736,,,,2024-01-17_06h46.18.900,,,100715,,001,Fix,,,100715,1.4020000000000437,0.04173180511,,,
﻿,,,,,full_stimuli_Hin-add_Pink_noise__70.wav,,1,,41,001,0.1593830334,41,2024-01-17_06h46.12.833,,Win32,19,syllable_storage,0,,return,,0,Stimuli/Experimental Stimuli/full_stimuli_Hin-add_Pink_noise__70.wav,syllable_storage,,,0.06499582289,Nonce,,him,,2022.2.5,3,,,,,59.95203836927736,,,,2024-01-17_06h46.18.900,,,100715,,001,Hin,,,100715,2.9180000000000064,0.04847920295,,,
﻿,,,,,full_stimuli_Lud-add_Pink_noise__70.wav,,1,,42,001,0.08846153846,42,2024-01-17_06h46.12.833,,Win32,30,syllable_storage,0,,return,,0,Stimuli/Experimental Stimuli/full_stimuli_Lud-add_Pink_noise__70.wav,syllable_storage,,,0.04988488104,Nonce,,bug,,2022.2.5,3,,,,,59.95203836927736,,,,2024-01-17_06h46.18.900,,,100715,,001,Lud,,,100715,1.3260000000000218,0.04221781216,,,
﻿,,,,,full_stimuli_Fik-add_Pink_noise__70.wav,,1,,43,001,0.08149779736,43,2024-01-17_06h46.12.833,,Win32,12,syllable_storage,0,,return,,0,Stimuli/Experimental Stimuli/full_stimuli_Fik-add_Pink_noise__70.wav,syllable_storage,,,0.08812111801,Nonce,,fix,,2022.2.5,3,,,,,59.95203836927736,,,,2024-01-17_06h46.18.900,,,100715,,001,Fik,,,100715,1.7579999999999245,0.04173180511,,,
﻿,,,,,full_stimuli_Van-add_Pink_noise__70.wav,,1,,44,001,0.5162454874,44,2024-01-17_06h46.12.833,,Win32,47,syllable_storage,22811819,,return,,0,Stimuli/Experimental Stimuli/full_stimuli_Van-add_Pink_noise__70.wav,syllable_storage,,,0.1221879135,Real,,yam,,2022.2.5,3,,,,,59.95203836927736,,,,2024-01-17_06h46.18.900,,,100715,,001,Van,,,100715,3.86099999999999,0.01836296626,,,
﻿,,,,,full_stimuli_Hap-add_Pink_noise__70.wav,,1,,45,001,0.02502979738,45,2024-01-17_06h46.12.833,,Win32,17,syllable_storage,0,,return,,0,Stimuli/Experimental Stimuli/full_stimuli_Hap-add_Pink_noise__70.wav,syllable_storage,,,0.1401837928,Nonce,,cap,,2022.2.5,3,,,,,59.95203836927736,,,,2024-01-17_06h46.18.900,,,100715,,001,Hap,,,100715,1.7250000000000227,0.04847920295,,,
﻿,,,,,full_stimuli_Dap-add_Pink_noise__70.wav,,1,,46,001,0.006369426752,46,2024-01-17_06h46.12.833,,Win32,7,syllable_storage,0,,return,,0,Stimuli/Experimental Stimuli/full_stimuli_Dap-add_Pink_noise__70.wav,syllable_storage,,,0.04472297394,Nonce,,dap,,2022.2.5,3,,,,,59.95203836927736,,,,2024-01-17_06h46.18.900,,,100715,,001,Dap,,,100715,1.5979999999999563,0.05687092463,,,
﻿,,,,,full_stimuli_Pen-add_Pink_noise__70.wav,,1,,47,001,0.2385159011,47,2024-01-17_06h46.12.833,,Win32,38,syllable_storage,1975721,,return,,0,Stimuli/Experimental Stimuli/full_stimuli_Pen-add_Pink_noise__70.wav,syllable_storage,,,0.07873139519,Real,,men,,2022.2.5,3,,,,,59.95203836927736,,,,2024-01-17_06h46.18.900,,,100715,,001,Pen,,,100715,2.2690000000000055,0.05823174436,,,
﻿,,,,,full_stimuli_Wob-add_Pink_noise__70.wav,,1,,48,001,0.02857142857,48,2024-01-17_06h46.12.833,,Win32,53,syllable_storage,0,,return,,0,Stimuli/Experimental Stimuli/full_stimuli_Wob-add_Pink_noise__70.wav,syllable_storage,,,0.06790465632,Nonce,,wad,,2022.2.5,3,,,,,59.95203836927736,,,,2024-01-17_06h46.18.900,,,100715,,001,Wob,,,100715,4.4529999999999745,0.02922522377,,,
﻿,,,,,full_stimuli_mix-add_Pink_noise__70.wav,,1,,49,001,0.07520891365,49,2024-01-17_06h46.12.833,,Win32,33,syllable_storage,3333067,,return,,0,Stimuli/Experimental Stimuli/full_stimuli_mix-add_Pink_noise__70.wav,syllable_storage,,,0.08052035438,Real,,fix,,2022.2.5,3,,,,,59.95203836927736,,,,2024-01-17_06h46.18.900,,,100715,,001,Mix,,,100715,4.999000000000024,0.07222874732,,,
﻿,,,,,full_stimuli_Nep-add_Pink_noise__70.wav,,1,,50,001,0.01908396947,50,2024-01-17_06h46.12.833,,Win32,35,syllable_storage,0,,return,,0,Stimuli/Experimental Stimuli/full_stimuli_Nep-add_Pink_noise__70.wav,syllable_storage,,,0.08644011877,Nonce,,ven,,2022.2.5,3,,,,,59.95203836927736,,,,2024-01-17_06h46.18.900,,,100715,,001,Nep,,,100715,2.379000000000019,0.024551456,,,
﻿,,,,,full_stimuli_Jug-add_Pink_noise__70.wav,,1,,51,001,0.07826086957,51,2024-01-17_06h46.12.833,,Win32,23,syllable_storage,250685,,return,,0,Stimuli/Experimental Stimuli/full_stimuli_Jug-add_Pink_noise__70.wav,syllable_storage,,,0.05773092369,Real,,dose,,2022.2.5,3,,,,,59.95203836927736,,,,2024-01-17_06h46.18.900,,,100715,,001,Jug,,,100715,7.359000000000037,0.01613543396,,,
﻿,,,,,full_stimuli_Kit-add_Pink_noise__70.wav,,1,,52,001,0.06637168142,52,2024-01-17_06h46.12.833,,Win32,25,syllable_storage,2634837,,return,,0,Stimuli/Experimental Stimuli/full_stimuli_Kit-add_Pink_noise__70.wav,syllable_storage,,,0.03729988447,Real,,him,,2022.2.5,3,,,,,59.95203836927736,,,,2024-01-17_06h46.18.900,,,100715,,001,Kit,,,100715,1.282000000000039,0.09815722328,,,
﻿,,,,,full_stimuli_Lut-add_Pink_noise__70.wav,,1,,53,001,0.05384615385,53,2024-01-17_06h46.12.833,,Win32,31,syllable_storage,0,,return,,0,Stimuli/Experimental Stimuli/full_stimuli_Lut-add_Pink_noise__70.wav,syllable_storage,,,0.04988488104,Nonce,,lug,,2022.2.5,3,,,,,59.95203836927736,,,,2024-01-17_06h46.18.900,,,100715,,001,Lut,,,100715,6.275999999999954,0.04221781216,,,
﻿,,,,,full_stimuli_hen-add_Pink_noise__70.wav,,1,,54,001,0.1649746193,54,2024-01-17_06h46.12.833,,Win32,18,syllable_storage,1644660,,return,,0,Stimuli/Experimental Stimuli/full_stimuli_hen-add_Pink_noise__70.wav,syllable_storage,,,0.1316624896,Real,,hen,,2022.2.5,3,,,,,59.95203836927736,,,,2024-01-17_06h46.18.900,,,100715,,001,Hen,,,100715,2.4600000000000364,0.04847920295,,,
﻿,,,,,full_stimuli_Fep-add_Pink_noise__70.wav,,1,,55,001,0,55,2024-01-17_06h46.12.833,,Win32,10,syllable_storage,0,,return,,0,Stimuli/Experimental Stimuli/full_stimuli_Fep-add_Pink_noise__70.wav,syllable_storage,,,0.08326863354,Nonce,,fex,,2022.2.5,3,,,,,59.95203836927736,,,,2024-01-17_06h46.18.900,,,100715,,001,Fep,,,100715,3.518000000000029,0.04173180511,,,
﻿,,,,,full_stimuli_Ret-add_Pink_noise__70.wav,,1,,56,001,0.05426356589,56,2024-01-17_06h46.12.833,,Win32,39,syllable_storage,0,,return,,0,Stimuli/Experimental Stimuli/full_stimuli_Ret-add_Pink_noise__70.wav,syllable_storage,,,0.09647023631,Nonce,,veck,,2022.2.5,3,,,,,59.95203836927736,,,,2024-01-17_06h46.18.900,,,100715,,001,Ret,,,100715,4.166999999999916,0.05415738528,,,
﻿,,,,,full_stimuli_fed-add_Pink_noise__70.wav,,1,,57,001,0.08391608392,57,2024-01-17_06h46.12.833,,Win32,9,syllable_storage,6910570,,return,,0,Stimuli/Experimental Stimuli/full_stimuli_fed-add_Pink_noise__70.wav,syllable_storage,,,0.08326863354,Real,,fed,,2022.2.5,3,,,,,59.95203836927736,,,,2024-01-17_06h46.18.900,,,100715,,001,Fed,,,100715,1.5879999999999654,0.04173180511,,,
﻿,,,,,full_stimuli_Fox-add_Pink_noise__70.wav,,1,,58,001,0.102189781,58,2024-01-17_06h46.12.833,,Win32,14,syllable_storage,9954162,,return,,0,Stimuli/Experimental Stimuli/full_stimuli_Fox-add_Pink_noise__70.wav,syllable_storage,,,0.05318322981,Real,,won,,2022.2.5,3,,,,,59.95203836927736,,,,2024-01-17_06h46.18.900,,,100715,,001,Fox,,,100715,3.993000000000052,0.04173180511,,,
﻿,,,,,full_stimuli_Wed-add_Pink_noise__70.wav,,1,,59,001,0.04609218437,59,2024-01-17_06h46.12.833,,Win32,51,syllable_storage,771774,,return,,0,Stimuli/Experimental Stimuli/full_stimuli_Wed-add_Pink_noise__70.wav,syllable_storage,,,0.1383037694,Real,,wed,,2022.2.5,3,,,,,59.95203836927736,,,,2024-01-17_06h46.18.900,,,100715,,001,Wed,,,100715,1.69399999999996,0.02922522377,,,
﻿,,,,,,,,,,001,,,2024-01-17_06h46.12.833,,Win32,,syllable_storage,,,,,,,syllable_storage,,,,,2.8579999999999472,,,2022.2.5,,,,,,59.95203836927736,,,,2024-01-17_06h46.18.900,,,100715,,001,,return,,100715,,,,,
